# Format: McCode with text headers
# URL: http://www.mccode.org
# Creator: 
# Instrument: BOA_beamline_monitors_MCPL_in.instr
# Ncount: 7003540
# Trace: no
# Gravitation: no
# Seed: 1672844660189673
# Directory: BOA_MCPL/1
# Nodes: 8
# Param: MCPLdir=BOA_1-9AA_1e8/1/
# Param: repeats=10
# Param: E_smear=0.01
# Param: pos_smear=0.001
# Param: dir_smear=0.001
# Date: Wed Jan  4 16:04:23 2023 (1672844663)
# type: array_1d(200)
# Source: BOA_RNR51 (BOA_beamline_monitors_MCPL_in.instr)
# component: spectra_bunker
# position: -0.0145 0 10.2396
# title: Wavelength monitor
# Ncount: 56028320
# filename: spectra_bunker.dat
# statistics: X0=4.35712; dX=1.80873;
# signal: Min=0; Max=1.94683e+07; Mean=8.30905e+06;
# values: 1.66181e+09 646950 2.60274e+07
# xvar: L
# yvar: (I,I_err)
# xlabel: Wavelength [AA]
# ylabel: Intensity
# xlimits: 0 10
# variables: L I I_err N
0.025 0 0 0 
0.075 0 0 0 
0.125 0 0 0 
0.175 0 0 0 
0.225 0 0 0 
0.275 0 0 0 
0.325 0 0 0 
0.375 0 0 0 
0.425 0 0 0 
0.475 0 0 0 
0.525 0 0 0 
0.575 0 0 0 
0.625 0 0 0 
0.675 0 0 0 
0.725 0 0 0 
0.775 0 0 0 
0.825 0 0 0 
0.875 0 0 0 
0.925 0 0 0 
0.975 77255.85468 9423.099921 313 
1.025 1705315.092 47355.8092 7306 
1.075 2506408.92 59115.71228 9240 
1.125 3039726.272 64953.56888 10815 
1.175 3602237.881 71277.15452 12407 
1.225 4163316.223 76306.01787 14437 
1.275 4448238.974 78249.26658 16932 
1.325 4908868.87 80966.12152 18640 
1.375 5644158.437 86421.79386 21601 
1.425 6421098.775 91313.44959 22763 
1.475 7316152.582 95802.09523 27531 
1.525 6651228.142 88834.7197 29964 
1.575 7613181.829 93485.10677 33129 
1.625 7840368.791 92741.03495 36847 
1.675 8461974.929 94277.10664 42652 
1.725 9207738.624 95771.4988 48429 
1.775 8898697.764 91221.13831 51401 
1.825 9573441.633 92421.83068 56212 
1.875 10230808.3 93086.90214 60610 
1.925 10244538.27 90155.99424 64295 
1.975 10494418.17 88562.67932 68510 
2.025 11258896.66 89570.13538 71952 
2.075 11301577.94 87392.85128 74616 
2.125 11887132.72 87133.55777 80852 
2.175 11627131.3 83648.23696 83022 
2.225 11831872.39 82341.13471 86017 
2.275 12960112.34 83503.77705 90325 
2.325 13254637.01 82285.65532 93173 
2.375 12741779.47 78209.18257 94863 
2.425 12934413.08 76741.29709 98794 
2.475 13332811.85 75884.29744 101790 
2.525 14429615.52 77131.41662 104935 
2.575 14356009.72 74918.9391 104887 
2.625 15346925.71 75661.68357 110228 
2.675 15554384.09 74226.0001 113196 
2.725 16107541.04 73933.31811 115391 
2.775 16771669.31 73953.23791 117783 
2.825 16636826.59 72142.53441 118279 
2.875 17067738.46 71844.90762 119928 
2.925 17252519.76 71018.83091 122528 
2.975 17676902.56 70741.31993 123906 
3.025 18259826.5 70977.02279 128029 
3.075 18341093.94 70074.76968 129259 
3.125 18333558.89 69027.3462 129145 
3.175 18391759.93 68260.55084 130090 
3.225 18968798.62 68396.143 134623 
3.275 19025581.59 67524.95128 135909 
3.325 19200280.61 66963.88816 138717 
3.375 19276151.06 66244.99933 138415 
3.425 19468311.82 65795.75533 139501 
3.475 19091404.74 64378.68807 140017 
3.525 18843682.68 62993.28546 140248 
3.575 19070297.57 62631.14061 142341 
3.625 19299556.51 62176.29327 145185 
3.675 19177303.67 61207.79941 145953 
3.725 18986904.9 60102.03679 147455 
3.775 19007171.62 59395.16778 149917 
3.825 19067497.41 58786.6092 151380 
3.875 18661562.6 57279.23692 151505 
3.925 18430409.85 56119.94888 153810 
3.975 18269327 55090.89524 156246 
4.025 18287867.21 54545.45395 157701 
4.075 17948724.21 53428.45876 157222 
4.125 17926206.11 52775.53968 159566 
4.175 17693888.81 51772.88662 160900 
4.225 17423851.62 50763.75776 161275 
4.275 17022891.74 49542.52001 160534 
4.325 16662709.98 48362.04042 161412 
4.375 16633389.44 47769.22849 164404 
4.425 16304121.29 46690.59467 165107 
4.475 16107028.58 45816.74857 166402 
4.525 15910408.58 44988.91153 168469 
4.575 15730599.67 44149.04787 170308 
4.625 15676544.69 43496.94406 173964 
4.675 15434159.95 42610.48029 174924 
4.725 14962659.06 41425.60835 173858 
4.775 14610307.23 40391.07906 175453 
4.825 14109104.94 39153.93621 174743 
4.875 14080987.35 38627.78547 177975 
4.925 14019406.55 38096.35373 180538 
4.975 13774039.2 37269.7472 182444 
5.025 13427929.93 36297.27564 183574 
5.075 13162290.57 35456.7102 184707 
5.125 12935245.24 34717.3907 186179 
5.175 12744629.33 34009.49392 188321 
5.225 12475027.13 33205.89034 190131 
5.275 12275018.87 32540.37973 191125 
5.325 11916173.49 31619.74187 191217 
5.375 11770172.01 31005.80013 194023 
5.425 11553582.87 30305.21656 195733 
5.475 11447203.61 29776.4572 198556 
5.525 11296879.56 29215.16986 201011 
5.575 11049290.3 28499.87868 201808 
5.625 10783316.8 27774.29341 202577 
5.675 10552899.98 27125.7273 203218 
5.725 10318755.49 26474.32359 203871 
5.775 10101932.13 25856.73305 205081 
5.825 9834983.677 25171.65351 204289 
5.875 9580567.225 24528.67705 204149 
5.925 9505715.51 24122.68893 207328 
5.975 9328082.015 23542.4672 208660 
6.025 9096293.093 22930.84867 208496 
6.075 8872275.649 22350.76201 207949 
6.125 8682686.701 21820.00736 209124 
6.175 8517294.265 21328.99424 210927 
6.225 8333147.065 20833.01397 211134 
6.275 8202225.143 20399.34057 212655 
6.325 8052002.814 19945.0845 213502 
6.375 7916779.865 19525.17024 215022 
6.425 7751760.137 19064.56705 214933 
6.475 7633649.451 18669.65764 216623 
6.525 7479633.449 18249.16175 216696 
6.575 7271380.737 17770.62237 215553 
6.625 7141197.542 17374.93391 216816 
6.675 7079282.957 17072.3954 218940 
6.725 6932637.17 16673.98535 219595 
6.775 6768333.742 16260.56324 219043 
6.825 6595719.476 15855.31382 217969 
6.875 6489009.589 15526.08952 219680 
6.925 6368472.626 15186.1839 220903 
6.975 6229315.259 14831.3955 220707 
7.025 6093954.658 14476.87146 221104 
7.075 5988549.542 14174.79318 222024 
7.125 5894754.839 13891.1367 222468 
7.175 5773503.418 13567.6929 223208 
7.225 5623373.141 13228.54663 221988 
7.275 5508827.888 12935.65896 222167 
7.325 5361620.951 12602.26095 220495 
7.375 5294772.92 12372.68173 221565 
7.425 5218529.726 12133.31612 222724 
7.475 5095063.783 11846.30705 221969 
7.525 4973676.337 11560.46473 221552 
7.575 4877543.916 11300.80955 222111 
7.625 4789926.906 11070.57789 222546 
7.675 4702627.332 10838.16971 222722 
7.725 4594593.375 10575.62889 222727 
7.775 4521836.49 10357.414 224096 
7.825 4409338.006 10091.97505 223614 
7.875 4321096.853 9876.181416 223056 
7.925 4241879.759 9668.86227 223496 
7.975 4141115.175 9443.734448 222353 
8.025 4038428.061 9216.888263 221300 
8.075 3974763.301 9039.263685 222178 
8.125 3881976.46 8831.378686 221690 
8.175 3844226.262 8699.935287 222601 
8.225 3757918.393 8500.109721 222422 
8.275 3675996.007 8312.716634 221641 
8.325 3618324.866 8155.603669 222501 
8.375 3570289.959 8019.278564 223003 
8.425 3514906.61 7867.568357 224209 
8.475 3426254.891 7682.761725 223118 
8.525 3338190.873 7494.923936 222134 
8.575 3265097.052 7327.296779 221930 
8.625 3194031.058 7170.17672 221295 
8.675 3146376.739 7041.893157 222112 
8.725 3090003.302 6906.479606 222403 
8.775 3029751.947 6766.437641 222401 
8.825 2998229.338 6661.022463 224086 
8.875 2943511.846 6532.340874 224027 
8.925 2658503.496 6150.009616 205774 
8.975 1891525.151 5154.743355 148028 
9.025 945286.3431 3628.637971 74483 
9.075 237109.8336 1809.526763 18808 
9.125 0 0 0 
9.175 0 0 0 
9.225 0 0 0 
9.275 0 0 0 
9.325 0 0 0 
9.375 0 0 0 
9.425 0 0 0 
9.475 0 0 0 
9.525 0 0 0 
9.575 0 0 0 
9.625 0 0 0 
9.675 0 0 0 
9.725 0 0 0 
9.775 0 0 0 
9.825 0 0 0 
9.875 0 0 0 
9.925 0 0 0 
9.975 0 0 0 
